<?xml version="1.0" encoding="UTF-8"?>

<Bundle xmlns="http://hl7.org/fhir">
  <id value="Example-HIVSimple"/>
  <type value="transaction"/>
  <entry>
    <fullUrl value="http://www.example.org/fhir/Patient/Patient-HIVSimple"/>
    <resource>
      <Patient>
        <id value="Patient-HIVSimple"/>
        <text>
          <status value="generated"/><div xmlns="http://www.w3.org/1999/xhtml"><p><b>Generated Narrative</b></p><p><b>name</b>: Felix Cat</p><p><b>birthDate</b>: 2000-01-02</p></div>
        </text>
        <name>
          <text value="Felix Cat"/>
        </name>
        <birthDate value="2000-01-02"/>
      </Patient>
    </resource>
    <request>
      <method value="PUT"/>
      <url value="Patient"/>
    </request>
  </entry>
  <entry>
    <fullUrl value="http://www.example.org/fhir/Organization/Organization-HIVSimple"/>
    <resource>
      <Organization>
        <id value="Organization-HIVSimple"/>
        <text>
          <status value="generated"/><div xmlns="http://www.w3.org/1999/xhtml"><p><b>Generated Narrative</b></p><p><b>name</b>: Government Hospital</p></div>
        </text>
        <name value="Government Hospital"/>
      </Organization>
    </resource>
    <request>
      <method value="PUT"/>
      <url value="Organization"/>
    </request>
  </entry>
  <entry>
    <fullUrl value="http://www.example.org/fhir/Location/Location-HIVSimple"/>
    <resource>
      <Location>
        <id value="Location-HIVSimple"/>
        <text>
          <status value="generated"/><div xmlns="http://www.w3.org/1999/xhtml"><p><b>Generated Narrative</b></p><p><b>managingOrganization</b>: <a href="#Organization_Organization-HIVSimple">See above (Organization/Organization-HIVSimple)</a></p></div>
        </text>
        <managingOrganization>
          <reference value="Organization/Organization-HIVSimple"/>
        </managingOrganization>
      </Location>
    </resource>
    <request>
      <method value="PUT"/>
      <url value="Location"/>
    </request>
  </entry>
  <entry>
    <fullUrl value="http://www.example.org/fhir/Observation/Observation-HIVSimple"/>
    <resource>
      <Observation>
        <id value="Observation-HIVSimple"/>
        <text>
          <status value="generated"/><div xmlns="http://www.w3.org/1999/xhtml"><p><b>Generated Narrative</b></p><p></p><p><b>code</b>: <span title="Codes: {http://loinc.org 75622-1}">LOINC Code</span></p><p><b>subject</b>: <a href="#Patient_Patient-HIVSimple">See above (Patient/Patient-HIVSimple)</a></p><p><b>encounter</b>: <a href="Encounter-HIVSimple">Encounter-HIVSimple</a></p><p><b>value</b>: <span title="Codes: {http://snomed.info/sct 165816005}">HIV Positive</span></p></div>
        </text>
        <status value="final"/>
        <code>
          <coding>
            <system value="http://loinc.org"/>
            <code value="75622-1"/>
            <display value="LOINC Code"/>
          </coding>
        </code>
        <subject>
          <reference value="Patient/Patient-HIVSimple"/>
        </subject>
        <encounter>
          <reference value="Encounter-HIVSimple"/>
        </encounter>
        <valueCodeableConcept>
          <coding>
            <system value="http://snomed.info/sct"/>
            <code value="165816005"/>
            <display value="HIV Positive"/>
          </coding>
        </valueCodeableConcept>
      </Observation>
    </resource>
    <request>
      <method value="PUT"/>
      <url value="Observation"/>
    </request>
  </entry>
  <entry>
    <fullUrl value="http://www.example.org/fhir/DiagnosticReport/DiagnosticReport-HIVSimple"/>
    <resource>
      <DiagnosticReport>
        <id value="DiagnosticReport-HIVSimple"/>
        <text>
          <status value="generated"/><div xmlns="http://www.w3.org/1999/xhtml"><p><b>Generated Narrative</b></p><p><b>status</b>: final</p><p><b>code</b>: <span title="Codes: {http://loinc.org 75622-1}">HIV types 1 and 2 testing</span></p><p><b>subject</b>: <a href="#Patient_Patient-HIVSimple">See above (Patient/Patient-HIVSimple)</a></p><p><b>encounter</b>: <a href="Encounter-HIVSimple">Encounter-HIVSimple</a></p><p><b>result</b>: <a href="#Observation_Observation-HIVSimple">See above (Observation/Observation-HIVSimple)</a></p></div>
        </text>
        <status value="final"/>
        <code>
          <coding>
            <system value="http://loinc.org"/>
            <code value="75622-1"/>
            <display value="HIV types 1 and 2 testing"/>
          </coding>
        </code>
        <subject>
          <reference value="Patient/Patient-HIVSimple"/>
        </subject>
        <encounter>
          <reference value="Encounter-HIVSimple"/>
        </encounter>
        <result>
          <reference value="Observation/Observation-HIVSimple"/>
        </result>
      </DiagnosticReport>
    </resource>
    <request>
      <method value="PUT"/>
      <url value="DiagnosticReport"/>
    </request>
  </entry>
  <entry>
    <fullUrl value="http://www.example.org/fhir/Condition/Condition-HIVSimple"/>
    <resource>
      <Condition>
        <id value="Condition-HIVSimple"/>
        <text>
          <status value="generated"/><div xmlns="http://www.w3.org/1999/xhtml"><p><b>Generated Narrative</b></p><p><b>clinicalStatus</b>: <span title="Codes: ">active</span></p><p><b>verificationStatus</b>: <span title="Codes: ">confirmed</span></p><p><b>code</b>: <span title="Codes: {http://snomed.info/sct 86406008}">HIV Positive</span></p><p><b>subject</b>: <a href="#Patient_Patient-HIVSimple">See above (Patient/Patient-HIVSimple)</a></p></div>
        </text>
        <clinicalStatus>
          <coding>
            <code value="active"/>
          </coding>
        </clinicalStatus>
        <verificationStatus>
          <coding>
            <code value="confirmed"/>
          </coding>
        </verificationStatus>
        <code>
          <coding>
            <system value="http://snomed.info/sct"/>
            <code value="86406008"/>
            <display value="HIV Positive"/>
          </coding>
        </code>
        <subject>
          <reference value="Patient/Patient-HIVSimple"/>
        </subject>
      </Condition>
    </resource>
    <request>
      <method value="PUT"/>
      <url value="Condition"/>
    </request>
  </entry>
</Bundle>