{
  "resourceType": "Bundle",
  "id": "Example-HIVSimple",
  "type": "transaction",
  "entry": [
    {
      "fullUrl": "http://www.example.org/fhir/Patient/Patient-HIVSimple",
      "resource": {
        "resourceType": "Patient",
        "id": "Patient-HIVSimple",
        "text": {
          "status": "generated",
          "div": "<div xmlns=\"http://www.w3.org/1999/xhtml\"><p><b>Generated Narrative</b></p><p><b>name</b>: Felix Cat</p><p><b>birthDate</b>: 2000-01-02</p></div>"
        },
        "name": [
          {
            "text": "Felix Cat"
          }
        ],
        "birthDate": "2000-01-02"
      },
      "request": {
        "method": "PUT",
        "url": "Patient"
      }
    },
    {
      "fullUrl": "http://www.example.org/fhir/Organization/Organization-HIVSimple",
      "resource": {
        "resourceType": "Organization",
        "id": "Organization-HIVSimple",
        "text": {
          "status": "generated",
          "div": "<div xmlns=\"http://www.w3.org/1999/xhtml\"><p><b>Generated Narrative</b></p><p><b>name</b>: Government Hospital</p></div>"
        },
        "name": "Government Hospital"
      },
      "request": {
        "method": "PUT",
        "url": "Organization"
      }
    },
    {
      "fullUrl": "http://www.example.org/fhir/Location/Location-HIVSimple",
      "resource": {
        "resourceType": "Location",
        "id": "Location-HIVSimple",
        "text": {
          "status": "generated",
          "div": "<div xmlns=\"http://www.w3.org/1999/xhtml\"><p><b>Generated Narrative</b></p><p><b>managingOrganization</b>: <a href=\"#Organization_Organization-HIVSimple\">See above (Organization/Organization-HIVSimple)</a></p></div>"
        },
        "managingOrganization": {
          "reference": "Organization/Organization-HIVSimple"
        }
      },
      "request": {
        "method": "PUT",
        "url": "Location"
      }
    },
    {
      "fullUrl": "http://www.example.org/fhir/Observation/Observation-HIVSimple",
      "resource": {
        "resourceType": "Observation",
        "id": "Observation-HIVSimple",
        "text": {
          "status": "generated",
          "div": "<div xmlns=\"http://www.w3.org/1999/xhtml\"><p><b>Generated Narrative</b></p><p></p><p><b>code</b>: <span title=\"Codes: {http://loinc.org 75622-1}\">LOINC Code</span></p><p><b>subject</b>: <a href=\"#Patient_Patient-HIVSimple\">See above (Patient/Patient-HIVSimple)</a></p><p><b>encounter</b>: <a href=\"Encounter-HIVSimple\">Encounter-HIVSimple</a></p><p><b>value</b>: <span title=\"Codes: {http://snomed.info/sct 165816005}\">HIV Positive</span></p></div>"
        },
        "status": "final",
        "code": {
          "coding": [
            {
              "system": "http://loinc.org",
              "code": "75622-1",
              "display": "LOINC Code"
            }
          ]
        },
        "subject": {
          "reference": "Patient/Patient-HIVSimple"
        },
        "encounter": {
          "reference": "Encounter-HIVSimple"
        },
        "valueCodeableConcept": {
          "coding": [
            {
              "system": "http://snomed.info/sct",
              "code": "165816005",
              "display": "HIV Positive"
            }
          ]
        }
      },
      "request": {
        "method": "PUT",
        "url": "Observation"
      }
    },
    {
      "fullUrl": "http://www.example.org/fhir/DiagnosticReport/DiagnosticReport-HIVSimple",
      "resource": {
        "resourceType": "DiagnosticReport",
        "id": "DiagnosticReport-HIVSimple",
        "text": {
          "status": "generated",
          "div": "<div xmlns=\"http://www.w3.org/1999/xhtml\"><p><b>Generated Narrative</b></p><p><b>status</b>: final</p><p><b>code</b>: <span title=\"Codes: {http://loinc.org 75622-1}\">HIV types 1 and 2 testing</span></p><p><b>subject</b>: <a href=\"#Patient_Patient-HIVSimple\">See above (Patient/Patient-HIVSimple)</a></p><p><b>encounter</b>: <a href=\"Encounter-HIVSimple\">Encounter-HIVSimple</a></p><p><b>result</b>: <a href=\"#Observation_Observation-HIVSimple\">See above (Observation/Observation-HIVSimple)</a></p></div>"
        },
        "status": "final",
        "code": {
          "coding": [
            {
              "system": "http://loinc.org",
              "code": "75622-1",
              "display": "HIV types 1 and 2 testing"
            }
          ]
        },
        "subject": {
          "reference": "Patient/Patient-HIVSimple"
        },
        "encounter": {
          "reference": "Encounter-HIVSimple"
        },
        "result": [
          {
            "reference": "Observation/Observation-HIVSimple"
          }
        ]
      },
      "request": {
        "method": "PUT",
        "url": "DiagnosticReport"
      }
    },
    {
      "fullUrl": "http://www.example.org/fhir/Condition/Condition-HIVSimple",
      "resource": {
        "resourceType": "Condition",
        "id": "Condition-HIVSimple",
        "text": {
          "status": "generated",
          "div": "<div xmlns=\"http://www.w3.org/1999/xhtml\"><p><b>Generated Narrative</b></p><p><b>clinicalStatus</b>: <span title=\"Codes: \">active</span></p><p><b>verificationStatus</b>: <span title=\"Codes: \">confirmed</span></p><p><b>code</b>: <span title=\"Codes: {http://snomed.info/sct 86406008}\">HIV Positive</span></p><p><b>subject</b>: <a href=\"#Patient_Patient-HIVSimple\">See above (Patient/Patient-HIVSimple)</a></p></div>"
        },
        "clinicalStatus": {
          "coding": [
            {
              "code": "active"
            }
          ]
        },
        "verificationStatus": {
          "coding": [
            {
              "code": "confirmed"
            }
          ]
        },
        "code": {
          "coding": [
            {
              "system": "http://snomed.info/sct",
              "code": "86406008",
              "display": "HIV Positive"
            }
          ]
        },
        "subject": {
          "reference": "Patient/Patient-HIVSimple"
        }
      },
      "request": {
        "method": "PUT",
        "url": "Condition"
      }
    }
  ]
}